{
  "resourceType": "Bundle",
  "type": "collection",
  "entry": [
    {
      "fullUrl": "urn:uuid:a3f9c2d1-2b40-4ab9-8133-5b1f2d4e9f91",
      "resource": {
        "resourceType": "Patient",
        "id": "a3f9c2d1-2b40-4ab9-8133-5b1f2d4e9f91",
        "identifier": [
          {
            "system": "https://fhir.synapxe.sg/NamingSystem/nric",
            "value": "S1111111D"
          }
        ],
        "name": [
          {
            "family": "John",
            "given": [
              "Doe"
            ],
            "text": "John Doe"
          }
        ],
        "gender": "male",
        "birthDate": "1960-05-15",
        "telecom": [
          {
            "system": "phone",
            "use": "mobile",
            "value": "91234567"
          },
          {
            "system": "phone",
            "use": "home",
            "value": "63112233"
          }
        ],
        "address": [
          {
            "line": [
              "888",
              "Serangoon Street 81",
              "7",
              "#11-98",
              "The Trilliant"
            ],
            "postalCode": "120123"
          }
        ],
        "communication": [
          {
            "language": {
              "coding": [
                {
                  "system": "https://fhir.synapxe.sg/CodeSystem/language",
                  "code": "en",
                  "display": "English"
                }
              ]
            },
            "preferred": true
          }
        ],
        "contact": [
          {
            "name": {
              "text": "Madam Tan Bee Hua"
            },
            "relationship": [
              {
                "coding": [
                  {
                    "system": "https://fhir.synapxe.sg/CodeSystem/relationship-type",
                    "code": "SPS",
                    "display": "Spouse"
                  }
                ],
                "text": "Wife"
              }
            ],
            "telecom": [
              {
                "system": "phone",
                "use": "home",
                "value": "61234567"
              },
              {
                "system": "phone",
                "use": "mobile",
                "value": "98765432"
              }
            ]
          }
        ],
        "extension": [
          {
            "url": "https://fhir.synapxe.sg/StructureDefinition/ext-ethnicity",
            "valueCodeableConcept": {
              "coding": [
                {
                  "system": "https://fhir.synapxe.sg/CodeSystem/ethnicity",
                  "code": "CN",
                  "display": "Chinese"
                }
              ]
            }
          },
          {
            "url": "https://fhir.synapxe.sg/StructureDefinition/ext-residential-status",
            "valueCodeableConcept": {
              "coding": [
                {
                  "system": "https://fhir.synapxe.sg/CodeSystem/residential-status",
                  "code": "C",
                  "display": "Singaporean"
                }
              ]
            }
          },
          {
            "url": "https://fhir.synapxe.sg/StructureDefinition/ext-subsidy",
            "valueCodeableConcept": {
              "coding": [
                {
                  "system": "https://fhir.synapxe.sg/CodeSystem/subsidy",
                  "code": "PG",
                  "display": "Pioneer Generation"
                }
              ]
            }
          },
          {
            "url": "https://fhir.synapxe.sg/StructureDefinition/ext-consent-for-sharing",
            "valueBoolean": true
          }
        ]
      }
    },
    {
      "fullUrl": "urn:uuid:bb7c8a63-0c49-40cf-9b0c-66e8b64d9254",
      "resource": {
        "resourceType": "Encounter",
        "id": "bb7c8a63-0c49-40cf-9b0c-66e8b64d9254",
        "status": "completed",
        "identifier": [
          {
            "system": "https://fhir.synapxe.sg/NamingSystem/event-id",
            "value": "bb7c8a63-0c49-40cf-9b0c-66e8b64d9254"
          }
        ],
        "actualPeriod": {
          "start": "2024-12-01T10:00:00+08:00",
          "end": "2024-12-01T11:30:00+08:00"
        },
        "subject": {
          "reference": "urn:uuid:a3f9c2d1-2b40-4ab9-8133-5b1f2d4e9f91"
        },
        "serviceProvider": {
          "reference": "urn:uuid:e0a3f4c1-32a1-4df2-8f36-9b164ea7db04"
        },
        "serviceType": [
          {
            "reference": {
              "reference": "urn:uuid:c4e5a0b2-9d87-4c0a-a3f3-05869125bc11"
            }
          }
        ],
        "location": [
          {
            "location": {
              "reference": "urn:uuid:d12b174f-6598-4f2f-b4cb-48df5113458c"
            }
          }
        ]
      }
    },
    {
      "fullUrl": "urn:uuid:c4e5a0b2-9d87-4c0a-a3f3-05869125bc11",
      "resource": {
        "resourceType": "HealthcareService",
        "id": "c4e5a0b2-9d87-4c0a-a3f3-05869125bc11",
        "active": true,
        "identifier": [
          {
            "system": "https://fhir.synapxe.sg/NamingSystem/screening-campaign",
            "value": "SC-2024-01"
          }
        ],
        "name": "Silver Screening Campaign 2024",
        "providedBy": {
          "reference": "urn:uuid:e0a3f4c1-32a1-4df2-8f36-9b164ea7db04"
        },
        "category": [
          {
            "coding": {
              "system": "https://fhir.synapxe.sg/CodeSystem/campaign-type",
              "code": "silver-screening-assessment",
              "display": "Silver Screening Assessment"
            }
          }
        ]
      }
    },
    {
      "fullUrl": "urn:uuid:d12b174f-6598-4f2f-b4cb-48df5113458c",
      "resource": {
        "resourceType": "Location",
        "id": "d12b174f-6598-4f2f-b4cb-48df5113458c",
        "name": "ABC Polyclinic - Serangoon",
        "address": {
          "line": [
            "888",
            "Serangoon Street 81",
            "7",
            "#11-98",
            "The Trilliant"
          ],
          "postalCode": "640123"
        },
        "extension": [
          {
            "url": "https://fhir.synapxe.sg/StructureDefinition/ext-grc",
            "valueCodeableConcept": {
              "coding": [
                {
                  "system": "https://fhir.synapxe.sg/CodeSystem/grc",
                  "code": "AMK",
                  "display": "Ang Mo Kio"
                }
              ]
            }
          },
          {
            "url": "https://fhir.synapxe.sg/StructureDefinition/ext-constituency",
            "valueCodeableConcept": {
              "coding": [
                {
                  "system": "https://fhir.synapxe.sg/CodeSystem/constituency",
                  "code": "AMK-HL",
                  "display": "Ang Mo Kio-Hougang"
                }
              ]
            }
          }
        ]
      }
    },
    {
      "fullUrl": "urn:uuid:e0a3f4c1-32a1-4df2-8f36-9b164ea7db04",
      "resource": {
        "resourceType": "Organization",
        "id": "e0a3f4c1-32a1-4df2-8f36-9b164ea7db04",
        "identifier": [
          {
            "system": "https://fhir.synapxe.sg/NamingSystem/hci-code",
            "value": "HCI001"
          }
        ],
        "type": [
          {
            "coding": [
              {
                "system": "https://fhir.synapxe.sg/CodeSystem/organization-type",
                "code": "CLUSTER"
              }
            ]
          }
        ],
        "name": "ABC Polyclinic"
      }
    },
    {
      "fullUrl": "urn:uuid:0a9b7d21-4f27-4a86-b787-d1b6b4ee68ab",
      "resource": {
        "resourceType": "Observation",
        "id": "0a9b7d21-4f27-4a86-b787-d1b6b4ee68ab",
        "subject": {
          "reference": "urn:uuid:a3f9c2d1-2b40-4ab9-8133-5b1f2d4e9f91"
        },
        "encounter": {
          "reference": "urn:uuid:bb7c8a63-0c49-40cf-9b0c-66e8b64d9254",
          "display": ""
        },
        "performer": {
          "reference": "urn:uuid:e0a3f4c1-32a1-4df2-8f36-9b164ea7db04",
          "display": "ABC Polyclinic"
        },
        "code": {
          "coding": [
            {
              "system": "https://fhir.synapxe.sg/CodeSystem/screening-type",
              "code": "HS"
            }
          ]
        },
        "component": [
          {
            "code": {
              "coding": [
                {
                  "system": "https://fhir.synapxe.sg/CodeSystem/screening-questionnaire",
                  "code": "SQ-L2H9-00000001",
                  "display": "Is the participant wearing hearing aids?"
                }
              ]
            },
            "valueString": "Yes (Proceed to next question)"
          },
          {
            "code": {
              "coding": [
                {
                  "system": "https://fhir.synapxe.sg/CodeSystem/screening-questionnaire",
                  "code": "SQ-Q1P1-00000002",
                  "display": "Does the participant need to change the hearing aids?"
                }
              ]
            },
            "valueString": "No (To skip hearing screening and advise to continue follow up with audiologist)"
          },
          {
            "code": {
              "coding": [
                {
                  "system": "https://fhir.synapxe.sg/CodeSystem/screening-questionnaire",
                  "code": "SQ-R5W8-00000003",
                  "display": "Proceed with Hearing Screening"
                }
              ]
            },
            "valueString": "Yes"
          },
          {
            "code": {
              "coding": [
                {
                  "system": "https://fhir.synapxe.sg/CodeSystem/screening-questionnaire",
                  "code": "SQ-P4Y1-00000004",
                  "display": "Visual Examination (Left Ear)"
                }
              ]
            },
            "valueString": "Pass"
          },
          {
            "code": {
              "coding": [
                {
                  "system": "https://fhir.synapxe.sg/CodeSystem/screening-questionnaire",
                  "code": "SQ-S7Q0-00000005",
                  "display": "Visual Examination (Right Ear)"
                }
              ]
            },
            "valueString": "Pass"
          },
          {
            "code": {
              "coding": [
                {
                  "system": "https://fhir.synapxe.sg/CodeSystem/screening-questionnaire",
                  "code": "SQ-J3J4-00000006",
                  "display": "Practice Tone (500Hz at 60dB at Better Ear)"
                }
              ]
            },
            "valueString": "Pass"
          },
          {
            "code": {
              "coding": [
                {
                  "system": "https://fhir.synapxe.sg/CodeSystem/screening-questionnaire",
                  "code": "SQ-F7B7-00000007",
                  "display": "Pure Tone Screening at 25dB (Left)"
                }
              ]
            },
            "valueString": "500Hz - R|1000Hz - R|2000Hz - R|4000Hz - R"
          },
          {
            "code": {
              "coding": [
                {
                  "system": "https://fhir.synapxe.sg/CodeSystem/screening-questionnaire",
                  "code": "SQ-B7P7-00000008",
                  "display": "Pure Tone Screening at 25dB (Right)"
                }
              ]
            },
            "valueString": "500Hz - R|1000Hz - R|2000Hz - R|4000Hz - NR"
          },
          {
            "code": {
              "coding": [
                {
                  "system": "https://fhir.synapxe.sg/CodeSystem/screening-questionnaire",
                  "code": "SQ-C1M5-00000009",
                  "display": "Pure Tone Screening at 40dB (Left)"
                }
              ]
            },
            "valueString": "500Hz - NR|1000Hz - NR|2000Hz - NR|4000Hz - NR"
          },
          {
            "code": {
              "coding": [
                {
                  "system": "https://fhir.synapxe.sg/CodeSystem/screening-questionnaire",
                  "code": "SQ-C2S1-00000010",
                  "display": "Pure Tone Screening at 40dB (Right)"
                }
              ]
            },
            "valueString": "500Hz - NR|1000Hz - NR|2000Hz - NR|4000Hz - NR"
          },
          {
            "code": {
              "coding": [
                {
                  "system": "https://fhir.synapxe.sg/CodeSystem/screening-questionnaire",
                  "code": "SQ-M8Z2-00000011",
                  "display": "Do you have any upcoming appointment with ear specialist?"
                }
              ]
            },
            "valueString": "Yes (To continue follow up with ear specialist)"
          },
          {
            "code": {
              "coding": [
                {
                  "system": "https://fhir.synapxe.sg/CodeSystem/screening-questionnaire",
                  "code": "SQ-D3S4-00000012",
                  "display": "Does the participant require to refer for L2 Hearing?"
                }
              ]
            },
            "valueString": "No"
          },
          {
            "code": {
              "coding": [
                {
                  "system": "https://fhir.synapxe.sg/CodeSystem/screening-questionnaire",
                  "code": "SQ-L6T4-00000013",
                  "display": "Does the participant agree for L2 Hearing?"
                }
              ]
            },
            "valueString": "Yes"
          }
        ]
      }
    },
    {
      "fullUrl": "urn:uuid:1c5d3f82-0bb1-4cc2-9f14-993baf0d0d33",
      "resource": {
        "resourceType": "Observation",
        "id": "1c5d3f82-0bb1-4cc2-9f14-993baf0d0d33",
        "code": {
          "coding": [
            {
              "system": "https://fhir.synapxe.sg/CodeSystem/screening-type",
              "code": "OS"
            }
          ]
        },
        "status": "final",
        "subject": {
          "reference": "urn:uuid:a3f9c2d1-2b40-4ab9-8133-5b1f2d4e9f91"
        },
        "encounter": {
          "reference": "urn:uuid:bb7c8a63-0c49-40cf-9b0c-66e8b64d9254"
        },
        "performer": {
          "reference": "urn:uuid:e0a3f4c1-32a1-4df2-8f36-9b164ea7db04",
          "display": "ABC Polyclinic"
        },
        "component": [
          {
            "code": {
              "coding": [
                {
                  "system": "https://fhir.synapxe.sg/CodeSystem/screening-questionnaire",
                  "code": "SQ-J1V1-00000014",
                  "display": "Is the participant currently wearing dentures or has dentures?"
                }
              ]
            },
            "valueString": "Yes"
          },
          {
            "code": {
              "coding": [
                {
                  "system": "https://fhir.synapxe.sg/CodeSystem/screening-questionnaire",
                  "code": "SQ-X7V6-00000015",
                  "display": "Placement of Denture (Upper)"
                }
              ]
            },
            "valueString": "Upper (partial)"
          },
          {
            "code": {
              "coding": [
                {
                  "system": "https://fhir.synapxe.sg/CodeSystem/screening-questionnaire",
                  "code": "SQ-V1K0-00000016",
                  "display": "Placement of Denture (Lower)"
                }
              ]
            },
            "valueString": "Lower (partial)"
          },
          {
            "code": {
              "coding": [
                {
                  "system": "https://fhir.synapxe.sg/CodeSystem/screening-questionnaire",
                  "code": "SQ-D7V0-00000017",
                  "display": "Proceed with Oral Screening"
                }
              ]
            },
            "valueString": "Yes"
          },
          {
            "code": {
              "coding": [
                {
                  "system": "https://fhir.synapxe.sg/CodeSystem/screening-questionnaire",
                  "code": "SQ-V0X0-00000018",
                  "display": "Do you have any dental pain on a scale of 1 to 10? (On a scale of 1-10, 1 being not painful at all and 10 being extremely painful)"
                }
              ]
            },
            "valueString": "No (Pain Scale: 1 to 5)"
          },
          {
            "code": {
              "coding": [
                {
                  "system": "https://fhir.synapxe.sg/CodeSystem/screening-questionnaire",
                  "code": "SQ-J6Q3-00000019",
                  "display": "Within the past 12 months, have you had any trouble speaking because of problems with your teeth, mouth or dentures?"
                }
              ]
            },
            "valueString": "No"
          },
          {
            "code": {
              "coding": [
                {
                  "system": "https://fhir.synapxe.sg/CodeSystem/screening-questionnaire",
                  "code": "SQ-M3F4-00000020",
                  "display": "Within the past 12 months, have you found it difficult to eat any foods because of problems with your teeth, mouth or dentures?"
                }
              ]
            },
            "valueString": "No"
          },
          {
            "code": {
              "coding": [
                {
                  "system": "https://fhir.synapxe.sg/CodeSystem/screening-questionnaire",
                  "code": "SQ-S3K2-00000021",
                  "display": "OHAT Status"
                }
              ]
            },
            "valueString": "Healthy"
          },
          {
            "code": {
              "coding": [
                {
                  "system": "https://fhir.synapxe.sg/CodeSystem/screening-questionnaire",
                  "code": "SQ-X4H3-00000022",
                  "display": "Do you have any upcoming appointment with dentist?"
                }
              ]
            },
            "valueString": "Yes (To continue follow up with dentist)"
          },
          {
            "code": {
              "coding": [
                {
                  "system": "https://fhir.synapxe.sg/CodeSystem/screening-questionnaire",
                  "code": "SQ-H6B2-00000023",
                  "display": "Does the participant require to refer for L2 Oral?"
                }
              ]
            },
            "valueString": "No"
          },
          {
            "code": {
              "coding": [
                {
                  "system": "https://fhir.synapxe.sg/CodeSystem/screening-questionnaire",
                  "code": "SQ-Y3R0-00000024",
                  "display": "Does the participant agree for L2 Oral?"
                }
              ]
            },
            "valueString": "Yes"
          }
        ]
      }
    },
    {
      "fullUrl": "urn:uuid:2e4a6c11-8f53-447a-a8f1-1dc93c4fd3ba",
      "resource": {
        "resourceType": "Observation",
        "id": "2e4a6c11-8f53-447a-a8f1-1dc93c4fd3ba",
        "code": {
          "coding": [
            {
              "system": "https://fhir.synapxe.sg/CodeSystem/screening-type",
              "code": "VS"
            }
          ]
        },
        "status": "final",
        "subject": {
          "reference": "urn:uuid:a3f9c2d1-2b40-4ab9-8133-5b1f2d4e9f91"
        },
        "encounter": {
          "reference": "urn:uuid:bb7c8a63-0c49-40cf-9b0c-66e8b64d9254"
        },
        "performer": {
          "reference": "urn:uuid:e0a3f4c1-32a1-4df2-8f36-9b164ea7db04",
          "display": "ABC Polyclinic"
        },
        "component": [
          {
            "code": {
              "coding": [
                {
                  "system": "https://fhir.synapxe.sg/CodeSystem/screening-questionnaire",
                  "code": "SQ-X1V3-00000025",
                  "display": "Is the participant currently wearing spectacles?"
                }
              ]
            },
            "valueString": "Yes (To carry out vision test with participant's spectacles)"
          },
          {
            "code": {
              "coding": [
                {
                  "system": "https://fhir.synapxe.sg/CodeSystem/screening-questionnaire",
                  "code": "SQ-Z6G5-00000026",
                  "display": "Did participant proceed with Vision Screening?"
                }
              ]
            },
            "valueString": "Yes"
          },
          {
            "code": {
              "coding": [
                {
                  "system": "https://fhir.synapxe.sg/CodeSystem/screening-questionnaire",
                  "code": "SQ-R1R7-00000027",
                  "display": "Snellen Test (Right Eye)\n(Please test the right eye first)"
                }
              ]
            },
            "valueString": "6/9"
          },
          {
            "code": {
              "coding": [
                {
                  "system": "https://fhir.synapxe.sg/CodeSystem/screening-questionnaire",
                  "code": "SQ-F6X7-00000028",
                  "display": "Snellen Test (Left Eye)"
                }
              ]
            },
            "valueString": "6/9"
          },
          {
            "code": {
              "coding": [
                {
                  "system": "https://fhir.synapxe.sg/CodeSystem/screening-questionnaire",
                  "code": "SQ-L9J4-00000029",
                  "display": "Pinhole Test (Right Eye)\n(If Snellen is worse than 6/12, please continue with Pinhole and test the right eye first)"
                }
              ]
            },
            "valueString": "6/6"
          },
          {
            "code": {
              "coding": [
                {
                  "system": "https://fhir.synapxe.sg/CodeSystem/screening-questionnaire",
                  "code": "SQ-Z2W8-00000030",
                  "display": "Pinhole Test (Left Eye)"
                }
              ]
            },
            "valueString": "6/6"
          },
          {
            "code": {
              "coding": [
                {
                  "system": "https://fhir.synapxe.sg/CodeSystem/screening-questionnaire",
                  "code": "SQ-K8L7-00000031",
                  "display": "Does participant have any upcoming appointment with any eye specialist or eye review at polyclinic or CHAS GP clinics?"
                }
              ]
            },
            "valueString": "Yes (To continue follow up with the upcoming eye review in primary care or specialist clinic)"
          },
          {
            "code": {
              "coding": [
                {
                  "system": "https://fhir.synapxe.sg/CodeSystem/screening-questionnaire",
                  "code": "SQ-G0W6-00000032",
                  "display": "Does the participant require new spectacles?"
                }
              ]
            },
            "valueString": "Yes"
          },
          {
            "code": {
              "coding": [
                {
                  "system": "https://fhir.synapxe.sg/CodeSystem/screening-questionnaire",
                  "code": "SQ-H4N6-00000033",
                  "display": "Is the participant eligible for SMF (Spectacles)?"
                }
              ]
            },
            "valueString": "Yes"
          },
          {
            "code": {
              "coding": [
                {
                  "system": "https://fhir.synapxe.sg/CodeSystem/screening-questionnaire",
                  "code": "SQ-C4C4-00000034",
                  "display": "Has SMF (Spectacles) applied for the participant?"
                }
              ]
            },
            "valueString": "No"
          },
          {
            "code": {
              "coding": [
                {
                  "system": "https://fhir.synapxe.sg/CodeSystem/screening-questionnaire",
                  "code": "SQ-T6W1-00000035",
                  "display": "Does the participant require to refer to L2 Vision?"
                }
              ]
            },
            "valueString": "No"
          },
          {
            "code": {
              "coding": [
                {
                  "system": "https://fhir.synapxe.sg/CodeSystem/screening-questionnaire",
                  "code": "SQ-F1T3-00000036",
                  "display": "Does the participant agree to proceed with L2 Vision?"
                }
              ]
            },
            "valueString": "Yes"
          }
        ]
      }
    }
  ]
}